File: PH_213/XRD/Grp3.dat
10.0000 178.0000 1.0000
10.0600 167.0000 1.0000
10.1200 167.0000 1.0000
10.1800 155.0000 1.0000
10.2400 153.0000 1.0000
10.3000 155.0000 1.0000
10.3600 180.0000 1.0000
10.4200 149.0000 1.0000
10.4800 162.0000 1.0000
10.5400 169.0000 1.0000
10.6000 167.0000 1.0000
10.6600 164.0000 1.0000
10.7200 182.0000 1.0000
10.7800 156.0000 1.0000
10.8400 195.0000 1.0000
10.9000 162.0000 1.0000
10.9600 149.0000 1.0000
11.0200 161.0000 1.0000
11.0800 176.0000 1.0000
11.1400 175.0000 1.0000
11.2000 178.0000 1.0000
11.2600 179.0000 1.0000
11.3200 174.0000 1.0000
11.3800 161.0000 1.0000
11.4400 176.0000 1.0000
11.5000 171.0000 1.0000
11.5600 146.0000 1.0000
11.6200 159.0000 1.0000
11.6800 164.0000 1.0000
11.7400 155.0000 1.0000
11.8000 157.0000 1.0000
11.8600 160.0000 1.0000
11.9200 159.0000 1.0000
11.9800 191.0000 1.0000
12.0400 149.0000 1.0000
12.1000 157.0000 1.0000
12.1600 164.0000 1.0000
12.2200 188.0000 1.0000
12.2800 158.0000 1.0000
12.3400 169.0000 1.0000
12.4000 173.0000 1.0000
12.4600 161.0000 1.0000
12.5200 194.0000 1.0000
12.5800 160.0000 1.0000
12.6400 162.0000 1.0000
12.7000 174.0000 1.0000
12.7600 173.0000 1.0000
12.8200 174.0000 1.0000
12.8800 176.0000 1.0000
12.9400 168.0000 1.0000
13.0000 180.0000 1.0000
13.0600 158.0000 1.0000
13.1200 172.0000 1.0000
13.1800 176.0000 1.0000
13.2400 164.0000 1.0000
13.3000 172.0000 1.0000
13.3600 181.0000 1.0000
13.4200 172.0000 1.0000
13.4800 135.0000 1.0000
13.5400 140.0000 1.0000
13.6000 133.0000 1.0000
13.6600 172.0000 1.0000
13.7200 179.0000 1.0000
13.7800 141.0000 1.0000
13.8400 139.0000 1.0000
13.9000 175.0000 1.0000
13.9600 171.0000 1.0000
14.0200 156.0000 1.0000
14.0800 142.0000 1.0000
14.1400 158.0000 1.0000
14.2000 165.0000 1.0000
14.2600 119.0000 1.0000
14.3200 162.0000 1.0000
14.3800 162.0000 1.0000
14.4400 173.0000 1.0000
14.5000 147.0000 1.0000
14.5600 152.0000 1.0000
14.6200 150.0000 1.0000
14.6800 162.0000 1.0000
14.7400 161.0000 1.0000
14.8000 163.0000 1.0000
14.8600 154.0000 1.0000
14.9200 168.0000 1.0000
14.9800 155.0000 1.0000
15.0400 160.0000 1.0000
15.1000 143.0000 1.0000
15.1600 174.0000 1.0000
15.2200 157.0000 1.0000
15.2800 153.0000 1.0000
15.3400 153.0000 1.0000
15.4000 151.0000 1.0000
15.4600 164.0000 1.0000
15.5200 175.0000 1.0000
15.5800 157.0000 1.0000
15.6400 178.0000 1.0000
15.7000 158.0000 1.0000
15.7600 152.0000 1.0000
15.8200 151.0000 1.0000
15.8800 155.0000 1.0000
15.9400 162.0000 1.0000
16.0000 162.0000 1.0000
16.0600 157.0000 1.0000
16.1200 168.0000 1.0000
16.1800 173.0000 1.0000
16.2400 161.0000 1.0000
16.3000 140.0000 1.0000
16.3600 177.0000 1.0000
16.4200 162.0000 1.0000
16.4800 165.0000 1.0000
16.5400 159.0000 1.0000
16.6000 164.0000 1.0000
16.6600 179.0000 1.0000
16.7200 160.0000 1.0000
16.7800 156.0000 1.0000
16.8400 152.0000 1.0000
16.9000 170.0000 1.0000
16.9600 175.0000 1.0000
17.0200 178.0000 1.0000
17.0800 155.0000 1.0000
17.1400 183.0000 1.0000
17.2000 156.0000 1.0000
17.2600 142.0000 1.0000
17.3200 172.0000 1.0000
17.3800 166.0000 1.0000
17.4400 170.0000 1.0000
17.5000 176.0000 1.0000
17.5600 182.0000 1.0000
17.6200 167.0000 1.0000
17.6800 178.0000 1.0000
17.7400 160.0000 1.0000
17.8000 186.0000 1.0000
17.8600 185.0000 1.0000
17.9200 146.0000 1.0000
17.9800 187.0000 1.0000
18.0400 178.0000 1.0000
18.1000 184.0000 1.0000
18.1600 148.0000 1.0000
18.2200 174.0000 1.0000
18.2800 176.0000 1.0000
18.3400 182.0000 1.0000
18.4000 170.0000 1.0000
18.4600 165.0000 1.0000
18.5200 176.0000 1.0000
18.5800 191.0000 1.0000
18.6400 172.0000 1.0000
18.7000 181.0000 1.0000
18.7600 200.0000 1.0000
18.8200 164.0000 1.0000
18.8800 182.0000 1.0000
18.9400 170.0000 1.0000
19.0000 177.0000 1.0000
19.0600 187.0000 1.0000
19.1200 158.0000 1.0000
19.1800 186.0000 1.0000
19.2400 184.0000 1.0000
19.3000 210.0000 1.0000
19.3600 195.0000 1.0000
19.4200 175.0000 1.0000
19.4800 169.0000 1.0000
19.5400 209.0000 1.0000
19.6000 209.0000 1.0000
19.6600 192.0000 1.0000
19.7200 186.0000 1.0000
19.7800 199.0000 1.0000
19.8400 200.0000 1.0000
19.9000 188.0000 1.0000
19.9600 208.0000 1.0000
20.0200 179.0000 1.0000
20.0800 189.0000 1.0000
20.1400 195.0000 1.0000
20.2000 198.0000 1.0000
20.2600 204.0000 1.0000
20.3200 180.0000 1.0000
20.3800 189.0000 1.0000
20.4400 192.0000 1.0000
20.5000 204.0000 1.0000
20.5600 182.0000 1.0000
20.6200 199.0000 1.0000
20.6800 177.0000 1.0000
20.7400 194.0000 1.0000
20.8000 199.0000 1.0000
20.8600 178.0000 1.0000
20.9200 185.0000 1.0000
20.9800 182.0000 1.0000
21.0400 192.0000 1.0000
21.1000 185.0000 1.0000
21.1600 226.0000 1.0000
21.2200 200.0000 1.0000
21.2800 181.0000 1.0000
21.3400 216.0000 1.0000
21.4000 203.0000 1.0000
21.4600 191.0000 1.0000
21.5200 206.0000 1.0000
21.5800 210.0000 1.0000
21.6400 226.0000 1.0000
21.7000 168.0000 1.0000
21.7600 195.0000 1.0000
21.8200 201.0000 1.0000
21.8800 175.0000 1.0000
21.9400 197.0000 1.0000
22.0000 221.0000 1.0000
22.0600 209.0000 1.0000
22.1200 239.0000 1.0000
22.1800 223.0000 1.0000
22.2400 236.0000 1.0000
22.3000 213.0000 1.0000
22.3600 207.0000 1.0000
22.4200 161.0000 1.0000
22.4800 229.0000 1.0000
22.5400 183.0000 1.0000
22.6000 221.0000 1.0000
22.6600 197.0000 1.0000
22.7200 239.0000 1.0000
22.7800 220.0000 1.0000
22.8400 246.0000 1.0000
22.9000 233.0000 1.0000
22.9600 283.0000 1.0000
23.0200 271.0000 1.0000
23.0800 264.0000 1.0000
23.1400 268.0000 1.0000
23.2000 251.0000 1.0000
23.2600 254.0000 1.0000
23.3200 208.0000 1.0000
23.3800 223.0000 1.0000
23.4400 204.0000 1.0000
23.5000 217.0000 1.0000
23.5600 198.0000 1.0000
23.6200 233.0000 1.0000
23.6800 225.0000 1.0000
23.7400 194.0000 1.0000
23.8000 218.0000 1.0000
23.8600 223.0000 1.0000
23.9200 202.0000 1.0000
23.9800 208.0000 1.0000
24.0400 228.0000 1.0000
24.1000 221.0000 1.0000
24.1600 224.0000 1.0000
24.2200 225.0000 1.0000
24.2800 195.0000 1.0000
24.3400 225.0000 1.0000
24.4000 213.0000 1.0000
24.4600 231.0000 1.0000
24.5200 227.0000 1.0000
24.5800 208.0000 1.0000
24.6400 212.0000 1.0000
24.7000 223.0000 1.0000
24.7600 199.0000 1.0000
24.8200 197.0000 1.0000
24.8800 228.0000 1.0000
24.9400 226.0000 1.0000
25.0000 238.0000 1.0000
25.0600 234.0000 1.0000
25.1200 240.0000 1.0000
25.1800 220.0000 1.0000
25.2400 250.0000 1.0000
25.3000 220.0000 1.0000
25.3600 237.0000 1.0000
25.4200 240.0000 1.0000
25.4800 228.0000 1.0000
25.5400 212.0000 1.0000
25.6000 223.0000 1.0000
25.6600 225.0000 1.0000
25.7200 229.0000 1.0000
25.7800 221.0000 1.0000
25.8400 232.0000 1.0000
25.9000 248.0000 1.0000
25.9600 220.0000 1.0000
26.0200 237.0000 1.0000
26.0800 239.0000 1.0000
26.1400 253.0000 1.0000
26.2000 225.0000 1.0000
26.2600 219.0000 1.0000
26.3200 195.0000 1.0000
26.3800 259.0000 1.0000
26.4400 255.0000 1.0000
26.5000 262.0000 1.0000
26.5600 211.0000 1.0000
26.6200 240.0000 1.0000
26.6800 247.0000 1.0000
26.7400 240.0000 1.0000
26.8000 230.0000 1.0000
26.8600 225.0000 1.0000
26.9200 208.0000 1.0000
26.9800 240.0000 1.0000
27.0400 204.0000 1.0000
27.1000 236.0000 1.0000
27.1600 206.0000 1.0000
27.2200 246.0000 1.0000
27.2800 253.0000 1.0000
27.3400 253.0000 1.0000
27.4000 243.0000 1.0000
27.4600 249.0000 1.0000
27.5200 248.0000 1.0000
27.5800 232.0000 1.0000
27.6400 253.0000 1.0000
27.7000 226.0000 1.0000
27.7600 223.0000 1.0000
27.8200 247.0000 1.0000
27.8800 220.0000 1.0000
27.9400 227.0000 1.0000
28.0000 250.0000 1.0000
28.0600 237.0000 1.0000
28.1200 239.0000 1.0000
28.1800 237.0000 1.0000
28.2400 234.0000 1.0000
28.3000 246.0000 1.0000
28.3600 224.0000 1.0000
28.4200 253.0000 1.0000
28.4800 232.0000 1.0000
28.5400 221.0000 1.0000
28.6000 259.0000 1.0000
28.6600 254.0000 1.0000
28.7200 279.0000 1.0000
28.7800 214.0000 1.0000
28.8400 224.0000 1.0000
28.9000 230.0000 1.0000
28.9600 244.0000 1.0000
29.0200 251.0000 1.0000
29.0800 265.0000 1.0000
29.1400 230.0000 1.0000
29.2000 231.0000 1.0000
29.2600 252.0000 1.0000
29.3200 243.0000 1.0000
29.3800 246.0000 1.0000
29.4400 271.0000 1.0000
29.5000 223.0000 1.0000
29.5600 240.0000 1.0000
29.6200 251.0000 1.0000
29.6800 245.0000 1.0000
29.7400 256.0000 1.0000
29.8000 234.0000 1.0000
29.8600 263.0000 1.0000
29.9200 243.0000 1.0000
29.9800 248.0000 1.0000
30.0400 258.0000 1.0000
30.1000 279.0000 1.0000
30.1600 224.0000 1.0000
30.2200 222.0000 1.0000
30.2800 217.0000 1.0000
30.3400 245.0000 1.0000
30.4000 242.0000 1.0000
30.4600 247.0000 1.0000
30.5200 268.0000 1.0000
30.5800 256.0000 1.0000
30.6400 273.0000 1.0000
30.7000 235.0000 1.0000
30.7600 240.0000 1.0000
30.8200 239.0000 1.0000
30.8800 262.0000 1.0000
30.9400 242.0000 1.0000
31.0000 243.0000 1.0000
31.0600 207.0000 1.0000
31.1200 283.0000 1.0000
31.1800 234.0000 1.0000
31.2400 254.0000 1.0000
31.3000 264.0000 1.0000
31.3600 282.0000 1.0000
31.4200 265.0000 1.0000
31.4800 255.0000 1.0000
31.5400 276.0000 1.0000
31.6000 277.0000 1.0000
31.6600 293.0000 1.0000
31.7200 290.0000 1.0000
31.7800 285.0000 1.0000
31.8400 263.0000 1.0000
31.9000 275.0000 1.0000
31.9600 252.0000 1.0000
32.0200 244.0000 1.0000
32.0800 273.0000 1.0000
32.1400 281.0000 1.0000
32.2000 268.0000 1.0000
32.2600 260.0000 1.0000
32.3200 266.0000 1.0000
32.3800 271.0000 1.0000
32.4400 334.0000 1.0000
32.5000 366.0000 1.0000
32.5600 497.0000 1.0000
32.6200 585.0000 1.0000
32.6800 750.0000 1.0000
32.7400 939.0000 1.0000
32.8000 1206 1.0000
32.8600 1236 1.0000
32.9200 1220 1.0000
32.9800 1139 1.0000
33.0400 973.0000 1.0000
33.1000 791.0000 1.0000
33.1600 500.0000 1.0000
33.2200 329.0000 1.0000
33.2800 317.0000 1.0000
33.3400 298.0000 1.0000
33.4000 268.0000 1.0000
33.4600 280.0000 1.0000
33.5200 302.0000 1.0000
33.5800 297.0000 1.0000
33.6400 255.0000 1.0000
33.7000 252.0000 1.0000
33.7600 290.0000 1.0000
33.8200 287.0000 1.0000
33.8800 282.0000 1.0000
33.9400 269.0000 1.0000
34.0000 278.0000 1.0000
34.0600 286.0000 1.0000
34.1200 263.0000 1.0000
34.1800 268.0000 1.0000
34.2400 251.0000 1.0000
34.3000 282.0000 1.0000
34.3600 282.0000 1.0000
34.4200 266.0000 1.0000
34.4800 303.0000 1.0000
34.5400 256.0000 1.0000
34.6000 276.0000 1.0000
34.6600 271.0000 1.0000
34.7200 256.0000 1.0000
34.7800 267.0000 1.0000
34.8400 277.0000 1.0000
34.9000 277.0000 1.0000
34.9600 281.0000 1.0000
35.0200 241.0000 1.0000
35.0800 293.0000 1.0000
35.1400 261.0000 1.0000
35.2000 277.0000 1.0000
35.2600 267.0000 1.0000
35.3200 293.0000 1.0000
35.3800 321.0000 1.0000
35.4400 268.0000 1.0000
35.5000 282.0000 1.0000
35.5600 312.0000 1.0000
35.6200 300.0000 1.0000
35.6800 300.0000 1.0000
35.7400 256.0000 1.0000
35.8000 307.0000 1.0000
35.8600 299.0000 1.0000
35.9200 297.0000 1.0000
35.9800 275.0000 1.0000
36.0400 281.0000 1.0000
36.1000 290.0000 1.0000
36.1600 288.0000 1.0000
36.2200 318.0000 1.0000
36.2800 304.0000 1.0000
36.3400 301.0000 1.0000
36.4000 266.0000 1.0000
36.4600 297.0000 1.0000
36.5200 319.0000 1.0000
36.5800 295.0000 1.0000
36.6400 251.0000 1.0000
36.7000 286.0000 1.0000
36.7600 309.0000 1.0000
36.8200 272.0000 1.0000
36.8800 297.0000 1.0000
36.9400 282.0000 1.0000
37.0000 295.0000 1.0000
37.0600 274.0000 1.0000
37.1200 278.0000 1.0000
37.1800 336.0000 1.0000
37.2400 312.0000 1.0000
37.3000 265.0000 1.0000
37.3600 276.0000 1.0000
37.4200 331.0000 1.0000
37.4800 275.0000 1.0000
37.5400 272.0000 1.0000
37.6000 261.0000 1.0000
37.6600 318.0000 1.0000
37.7200 291.0000 1.0000
37.7800 324.0000 1.0000
37.8400 295.0000 1.0000
37.9000 327.0000 1.0000
37.9600 296.0000 1.0000
38.0200 336.0000 1.0000
38.0800 263.0000 1.0000
38.1400 305.0000 1.0000
38.2000 302.0000 1.0000
38.2600 277.0000 1.0000
38.3200 308.0000 1.0000
38.3800 293.0000 1.0000
38.4400 278.0000 1.0000
38.5000 271.0000 1.0000
38.5600 280.0000 1.0000
38.6200 300.0000 1.0000
38.6800 322.0000 1.0000
38.7400 290.0000 1.0000
38.8000 312.0000 1.0000
38.8600 310.0000 1.0000
38.9200 290.0000 1.0000
38.9800 307.0000 1.0000
39.0400 290.0000 1.0000
39.1000 317.0000 1.0000
39.1600 324.0000 1.0000
39.2200 299.0000 1.0000
39.2800 304.0000 1.0000
39.3400 306.0000 1.0000
39.4000 288.0000 1.0000
39.4600 295.0000 1.0000
39.5200 286.0000 1.0000
39.5800 323.0000 1.0000
39.6400 308.0000 1.0000
39.7000 273.0000 1.0000
39.7600 302.0000 1.0000
39.8200 324.0000 1.0000
39.8800 318.0000 1.0000
39.9400 328.0000 1.0000
40.0000 277.0000 1.0000
40.0600 358.0000 1.0000
40.1200 313.0000 1.0000
40.1800 326.0000 1.0000
40.2400 332.0000 1.0000
40.3000 348.0000 1.0000
40.3600 356.0000 1.0000
40.4200 397.0000 1.0000
40.4800 461.0000 1.0000
40.5400 487.0000 1.0000
40.6000 506.0000 1.0000
40.6600 501.0000 1.0000
40.7200 455.0000 1.0000
40.7800 434.0000 1.0000
40.8400 408.0000 1.0000
40.9000 370.0000 1.0000
40.9600 346.0000 1.0000
41.0200 329.0000 1.0000
41.0800 297.0000 1.0000
41.1400 335.0000 1.0000
41.2000 278.0000 1.0000
41.2600 298.0000 1.0000
41.3200 292.0000 1.0000
41.3800 307.0000 1.0000
41.4400 317.0000 1.0000
41.5000 314.0000 1.0000
41.5600 313.0000 1.0000
41.6200 291.0000 1.0000
41.6800 301.0000 1.0000
41.7400 288.0000 1.0000
41.8000 292.0000 1.0000
41.8600 331.0000 1.0000
41.9200 321.0000 1.0000
41.9800 318.0000 1.0000
42.0400 288.0000 1.0000
42.1000 315.0000 1.0000
42.1600 305.0000 1.0000
42.2200 306.0000 1.0000
42.2800 310.0000 1.0000
42.3400 330.0000 1.0000
42.4000 322.0000 1.0000
42.4600 310.0000 1.0000
42.5200 344.0000 1.0000
42.5800 317.0000 1.0000
42.6400 353.0000 1.0000
42.7000 291.0000 1.0000
42.7600 347.0000 1.0000
42.8200 323.0000 1.0000
42.8800 313.0000 1.0000
42.9400 328.0000 1.0000
43.0000 296.0000 1.0000
43.0600 312.0000 1.0000
43.1200 326.0000 1.0000
43.1800 326.0000 1.0000
43.2400 332.0000 1.0000
43.3000 341.0000 1.0000
43.3600 358.0000 1.0000
43.4200 353.0000 1.0000
43.4800 296.0000 1.0000
43.5400 333.0000 1.0000
43.6000 332.0000 1.0000
43.6600 331.0000 1.0000
43.7200 335.0000 1.0000
43.7800 320.0000 1.0000
43.8400 314.0000 1.0000
43.9000 345.0000 1.0000
43.9600 333.0000 1.0000
44.0200 292.0000 1.0000
44.0800 319.0000 1.0000
44.1400 362.0000 1.0000
44.2000 353.0000 1.0000
44.2600 316.0000 1.0000
44.3200 332.0000 1.0000
44.3800 306.0000 1.0000
44.4400 367.0000 1.0000
44.5000 319.0000 1.0000
44.5600 323.0000 1.0000
44.6200 301.0000 1.0000
44.6800 361.0000 1.0000
44.7400 323.0000 1.0000
44.8000 307.0000 1.0000
44.8600 328.0000 1.0000
44.9200 323.0000 1.0000
44.9800 327.0000 1.0000
45.0400 312.0000 1.0000
45.1000 355.0000 1.0000
45.1600 324.0000 1.0000
45.2200 340.0000 1.0000
45.2800 303.0000 1.0000
45.3400 306.0000 1.0000
45.4000 306.0000 1.0000
45.4600 311.0000 1.0000
45.5200 337.0000 1.0000
45.5800 323.0000 1.0000
45.6400 343.0000 1.0000
45.7000 343.0000 1.0000
45.7600 351.0000 1.0000
45.8200 324.0000 1.0000
45.8800 296.0000 1.0000
45.9400 344.0000 1.0000
46.0000 298.0000 1.0000
46.0600 352.0000 1.0000
46.1200 350.0000 1.0000
46.1800 294.0000 1.0000
46.2400 308.0000 1.0000
46.3000 348.0000 1.0000
46.3600 355.0000 1.0000
46.4200 330.0000 1.0000
46.4800 302.0000 1.0000
46.5400 364.0000 1.0000
46.6000 365.0000 1.0000
46.6600 330.0000 1.0000
46.7200 358.0000 1.0000
46.7800 317.0000 1.0000
46.8400 345.0000 1.0000
46.9000 407.0000 1.0000
46.9600 394.0000 1.0000
47.0200 435.0000 1.0000
47.0800 544.0000 1.0000
47.1400 657.0000 1.0000
47.2000 695.0000 1.0000
47.2600 756.0000 1.0000
47.3200 834.0000 1.0000
47.3800 810.0000 1.0000
47.4400 700.0000 1.0000
47.5000 635.0000 1.0000
47.5600 482.0000 1.0000
47.6200 419.0000 1.0000
47.6800 400.0000 1.0000
47.7400 344.0000 1.0000
47.8000 336.0000 1.0000
47.8600 381.0000 1.0000
47.9200 367.0000 1.0000
47.9800 357.0000 1.0000
48.0400 350.0000 1.0000
48.1000 355.0000 1.0000
48.1600 337.0000 1.0000
48.2200 331.0000 1.0000
48.2800 358.0000 1.0000
48.3400 339.0000 1.0000
48.4000 364.0000 1.0000
48.4600 332.0000 1.0000
48.5200 345.0000 1.0000
48.5800 355.0000 1.0000
48.6400 352.0000 1.0000
48.7000 336.0000 1.0000
48.7600 324.0000 1.0000
48.8200 352.0000 1.0000
48.8800 350.0000 1.0000
48.9400 328.0000 1.0000
49.0000 329.0000 1.0000
49.0600 321.0000 1.0000
49.1200 341.0000 1.0000
49.1800 353.0000 1.0000
49.2400 339.0000 1.0000
49.3000 355.0000 1.0000
49.3600 336.0000 1.0000
49.4200 384.0000 1.0000
49.4800 339.0000 1.0000
49.5400 317.0000 1.0000
49.6000 337.0000 1.0000
49.6600 347.0000 1.0000
49.7200 343.0000 1.0000
49.7800 320.0000 1.0000
49.8400 360.0000 1.0000
49.9000 333.0000 1.0000
49.9600 342.0000 1.0000
50.0200 345.0000 1.0000
50.0800 349.0000 1.0000
50.1400 340.0000 1.0000
50.2000 360.0000 1.0000
50.2600 349.0000 1.0000
50.3200 307.0000 1.0000
50.3800 355.0000 1.0000
50.4400 316.0000 1.0000
50.5000 351.0000 1.0000
50.5600 387.0000 1.0000
50.6200 366.0000 1.0000
50.6800 376.0000 1.0000
50.7400 344.0000 1.0000
50.8000 341.0000 1.0000
50.8600 351.0000 1.0000
50.9200 341.0000 1.0000
50.9800 355.0000 1.0000
51.0400 349.0000 1.0000
51.1000 341.0000 1.0000
51.1600 357.0000 1.0000
51.2200 330.0000 1.0000
51.2800 334.0000 1.0000
51.3400 358.0000 1.0000
51.4000 365.0000 1.0000
51.4600 344.0000 1.0000
51.5200 372.0000 1.0000
51.5800 339.0000 1.0000
51.6400 390.0000 1.0000
51.7000 351.0000 1.0000
51.7600 333.0000 1.0000
51.8200 340.0000 1.0000
51.8800 354.0000 1.0000
51.9400 335.0000 1.0000
52.0000 364.0000 1.0000
52.0600 352.0000 1.0000
52.1200 367.0000 1.0000
52.1800 369.0000 1.0000
52.2400 362.0000 1.0000
52.3000 359.0000 1.0000
52.3600 336.0000 1.0000
52.4200 334.0000 1.0000
52.4800 366.0000 1.0000
52.5400 364.0000 1.0000
52.6000 364.0000 1.0000
52.6600 342.0000 1.0000
52.7200 368.0000 1.0000
52.7800 346.0000 1.0000
52.8400 359.0000 1.0000
52.9000 357.0000 1.0000
52.9600 361.0000 1.0000
53.0200 391.0000 1.0000
53.0800 394.0000 1.0000
53.1400 406.0000 1.0000
53.2000 424.0000 1.0000
53.2600 427.0000 1.0000
53.3200 393.0000 1.0000
53.3800 423.0000 1.0000
53.4400 416.0000 1.0000
53.5000 427.0000 1.0000
53.5600 390.0000 1.0000
53.6200 425.0000 1.0000
53.6800 375.0000 1.0000
53.7400 381.0000 1.0000
53.8000 364.0000 1.0000
53.8600 399.0000 1.0000
53.9200 368.0000 1.0000
53.9800 375.0000 1.0000
54.0400 369.0000 1.0000
54.1000 336.0000 1.0000
54.1600 345.0000 1.0000
54.2200 356.0000 1.0000
54.2800 363.0000 1.0000
54.3400 330.0000 1.0000
54.4000 363.0000 1.0000
54.4600 400.0000 1.0000
54.5200 392.0000 1.0000
54.5800 369.0000 1.0000
54.6400 405.0000 1.0000
54.7000 328.0000 1.0000
54.7600 360.0000 1.0000
54.8200 378.0000 1.0000
54.8800 346.0000 1.0000
54.9400 375.0000 1.0000
55.0000 338.0000 1.0000
55.0600 391.0000 1.0000
55.1200 378.0000 1.0000
55.1800 374.0000 1.0000
55.2400 359.0000 1.0000
55.3000 359.0000 1.0000
55.3600 353.0000 1.0000
55.4200 376.0000 1.0000
55.4800 350.0000 1.0000
55.5400 360.0000 1.0000
55.6000 390.0000 1.0000
55.6600 357.0000 1.0000
55.7200 367.0000 1.0000
55.7800 369.0000 1.0000
55.8400 375.0000 1.0000
55.9000 366.0000 1.0000
55.9600 364.0000 1.0000
56.0200 378.0000 1.0000
56.0800 370.0000 1.0000
56.1400 351.0000 1.0000
56.2000 383.0000 1.0000
56.2600 374.0000 1.0000
56.3200 370.0000 1.0000
56.3800 359.0000 1.0000
56.4400 377.0000 1.0000
56.5000 382.0000 1.0000
56.5600 379.0000 1.0000
56.6200 403.0000 1.0000
56.6800 380.0000 1.0000
56.7400 385.0000 1.0000
56.8000 366.0000 1.0000
56.8600 356.0000 1.0000
56.9200 374.0000 1.0000
56.9800 379.0000 1.0000
57.0400 365.0000 1.0000
57.1000 376.0000 1.0000
57.1600 382.0000 1.0000
57.2200 356.0000 1.0000
57.2800 363.0000 1.0000
57.3400 370.0000 1.0000
57.4000 382.0000 1.0000
57.4600 409.0000 1.0000
57.5200 366.0000 1.0000
57.5800 361.0000 1.0000
57.6400 361.0000 1.0000
57.7000 355.0000 1.0000
57.7600 358.0000 1.0000
57.8200 383.0000 1.0000
57.8800 395.0000 1.0000
57.9400 405.0000 1.0000
58.0000 358.0000 1.0000
58.0600 404.0000 1.0000
58.1200 397.0000 1.0000
58.1800 366.0000 1.0000
58.2400 386.0000 1.0000
58.3000 379.0000 1.0000
58.3600 392.0000 1.0000
58.4200 368.0000 1.0000
58.4800 434.0000 1.0000
58.5400 487.0000 1.0000
58.6000 558.0000 1.0000
58.6600 540.0000 1.0000
58.7200 731.0000 1.0000
58.7800 821.0000 1.0000
58.8400 849.0000 1.0000
58.9000 898.0000 1.0000
58.9600 925.0000 1.0000
59.0200 823.0000 1.0000
59.0800 747.0000 1.0000
59.1400 629.0000 1.0000
59.2000 581.0000 1.0000
59.2600 490.0000 1.0000
59.3200 412.0000 1.0000
59.3800 407.0000 1.0000
59.4400 423.0000 1.0000
59.5000 418.0000 1.0000
59.5600 387.0000 1.0000
59.6200 397.0000 1.0000
59.6800 382.0000 1.0000
59.7400 403.0000 1.0000
59.8000 407.0000 1.0000
59.8600 351.0000 1.0000
59.9200 380.0000 1.0000
59.9800 379.0000 1.0000
60.0400 382.0000 1.0000
60.1000 346.0000 1.0000
60.1600 410.0000 1.0000
60.2200 384.0000 1.0000
60.2800 388.0000 1.0000
60.3400 361.0000 1.0000
60.4000 382.0000 1.0000
60.4600 376.0000 1.0000
60.5200 381.0000 1.0000
60.5800 377.0000 1.0000
60.6400 403.0000 1.0000
60.7000 391.0000 1.0000
60.7600 395.0000 1.0000
60.8200 404.0000 1.0000
60.8800 384.0000 1.0000
60.9400 406.0000 1.0000
61.0000 384.0000 1.0000
61.0600 390.0000 1.0000
61.1200 376.0000 1.0000
61.1800 366.0000 1.0000
61.2400 382.0000 1.0000
61.3000 395.0000 1.0000
61.3600 391.0000 1.0000
61.4200 373.0000 1.0000
61.4800 384.0000 1.0000
61.5400 351.0000 1.0000
61.6000 337.0000 1.0000
61.6600 391.0000 1.0000
61.7200 375.0000 1.0000
61.7800 394.0000 1.0000
61.8400 420.0000 1.0000
61.9000 393.0000 1.0000
61.9600 392.0000 1.0000
62.0200 365.0000 1.0000
62.0800 436.0000 1.0000
62.1400 351.0000 1.0000
62.2000 390.0000 1.0000
62.2600 380.0000 1.0000
62.3200 360.0000 1.0000
62.3800 399.0000 1.0000
62.4400 392.0000 1.0000
62.5000 402.0000 1.0000
62.5600 365.0000 1.0000
62.6200 395.0000 1.0000
62.6800 405.0000 1.0000
62.7400 383.0000 1.0000
62.8000 404.0000 1.0000
62.8600 438.0000 1.0000
62.9200 377.0000 1.0000
62.9800 389.0000 1.0000
63.0400 422.0000 1.0000
63.1000 396.0000 1.0000
63.1600 380.0000 1.0000
63.2200 434.0000 1.0000
63.2800 407.0000 1.0000
63.3400 402.0000 1.0000
63.4000 388.0000 1.0000
63.4600 370.0000 1.0000
63.5200 393.0000 1.0000
63.5800 360.0000 1.0000
63.6400 380.0000 1.0000
63.7000 376.0000 1.0000
63.7600 398.0000 1.0000
63.8200 356.0000 1.0000
63.8800 381.0000 1.0000
63.9400 393.0000 1.0000
64.0000 402.0000 1.0000
64.0600 360.0000 1.0000
64.1200 384.0000 1.0000
64.1800 398.0000 1.0000
64.2400 391.0000 1.0000
64.3000 398.0000 1.0000
64.3600 397.0000 1.0000
64.4200 397.0000 1.0000
64.4800 388.0000 1.0000
64.5400 423.0000 1.0000
64.6000 388.0000 1.0000
64.6600 388.0000 1.0000
64.7200 411.0000 1.0000
64.7800 327.0000 1.0000
64.8400 403.0000 1.0000
64.9000 375.0000 1.0000
64.9600 416.0000 1.0000
65.0200 389.0000 1.0000
65.0800 399.0000 1.0000
65.1400 391.0000 1.0000
65.2000 388.0000 1.0000
65.2600 389.0000 1.0000
65.3200 377.0000 1.0000
65.3800 388.0000 1.0000
65.4400 391.0000 1.0000
65.5000 390.0000 1.0000
65.5600 387.0000 1.0000
65.6200 394.0000 1.0000
65.6800 441.0000 1.0000
65.7400 379.0000 1.0000
65.8000 382.0000 1.0000
65.8600 386.0000 1.0000
65.9200 421.0000 1.0000
65.9800 397.0000 1.0000
66.0400 412.0000 1.0000
66.1000 396.0000 1.0000
66.1600 420.0000 1.0000
66.2200 410.0000 1.0000
66.2800 367.0000 1.0000
66.3400 401.0000 1.0000
66.4000 387.0000 1.0000
66.4600 379.0000 1.0000
66.5200 371.0000 1.0000
66.5800 399.0000 1.0000
66.6400 427.0000 1.0000
66.7000 410.0000 1.0000
66.7600 410.0000 1.0000
66.8200 394.0000 1.0000
66.8800 413.0000 1.0000
66.9400 390.0000 1.0000
67.0000 410.0000 1.0000
67.0600 417.0000 1.0000
67.1200 419.0000 1.0000
67.1800 406.0000 1.0000
67.2400 401.0000 1.0000
67.3000 424.0000 1.0000
67.3600 397.0000 1.0000
67.4200 400.0000 1.0000
67.4800 377.0000 1.0000
67.5400 382.0000 1.0000
67.6000 413.0000 1.0000
67.6600 372.0000 1.0000
67.7200 428.0000 1.0000
67.7800 385.0000 1.0000
67.8400 442.0000 1.0000
67.9000 398.0000 1.0000
67.9600 387.0000 1.0000
68.0200 404.0000 1.0000
68.0800 412.0000 1.0000
68.1400 383.0000 1.0000
68.2000 409.0000 1.0000
68.2600 399.0000 1.0000
68.3200 397.0000 1.0000
68.3800 419.0000 1.0000
68.4400 380.0000 1.0000
68.5000 445.0000 1.0000
68.5600 377.0000 1.0000
68.6200 419.0000 1.0000
68.6800 391.0000 1.0000
68.7400 424.0000 1.0000
68.8000 417.0000 1.0000
68.8600 449.0000 1.0000
68.9200 491.0000 1.0000
68.9800 537.0000 1.0000
69.0400 551.0000 1.0000
69.1000 577.0000 1.0000
69.1600 589.0000 1.0000
69.2200 612.0000 1.0000
69.2800 622.0000 1.0000
69.3400 622.0000 1.0000
69.4000 606.0000 1.0000
69.4600 607.0000 1.0000
69.5200 503.0000 1.0000
69.5800 482.0000 1.0000
69.6400 449.0000 1.0000
69.7000 417.0000 1.0000
69.7600 406.0000 1.0000
69.8200 433.0000 1.0000
69.8800 378.0000 1.0000
69.9400 369.0000 1.0000
70.0000 433.0000 1.0000
70.0600 387.0000 1.0000
70.1200 413.0000 1.0000
70.1800 442.0000 1.0000
70.2400 413.0000 1.0000
70.3000 399.0000 1.0000
70.3600 418.0000 1.0000
70.4200 410.0000 1.0000
70.4800 387.0000 1.0000
70.5400 384.0000 1.0000
70.6000 419.0000 1.0000
70.6600 380.0000 1.0000
70.7200 421.0000 1.0000
70.7800 411.0000 1.0000
70.8400 389.0000 1.0000
70.9000 381.0000 1.0000
70.9600 400.0000 1.0000
71.0200 414.0000 1.0000
71.0800 404.0000 1.0000
71.1400 401.0000 1.0000
71.2000 368.0000 1.0000
71.2600 381.0000 1.0000
71.3200 409.0000 1.0000
71.3800 409.0000 1.0000
71.4400 361.0000 1.0000
71.5000 416.0000 1.0000
71.5600 409.0000 1.0000
71.6200 416.0000 1.0000
71.6800 400.0000 1.0000
71.7400 404.0000 1.0000
71.8000 382.0000 1.0000
71.8600 373.0000 1.0000
71.9200 369.0000 1.0000
71.9800 397.0000 1.0000
72.0400 379.0000 1.0000
72.1000 416.0000 1.0000
72.1600 416.0000 1.0000
72.2200 385.0000 1.0000
72.2800 414.0000 1.0000
72.3400 400.0000 1.0000
72.4000 429.0000 1.0000
72.4600 371.0000 1.0000
72.5200 402.0000 1.0000
72.5800 406.0000 1.0000
72.6400 410.0000 1.0000
72.7000 419.0000 1.0000
72.7600 369.0000 1.0000
72.8200 379.0000 1.0000
72.8800 423.0000 1.0000
72.9400 388.0000 1.0000
73.0000 406.0000 1.0000
73.0600 366.0000 1.0000
73.1200 397.0000 1.0000
73.1800 423.0000 1.0000
73.2400 396.0000 1.0000
73.3000 404.0000 1.0000
73.3600 410.0000 1.0000
73.4200 450.0000 1.0000
73.4800 412.0000 1.0000
73.5400 427.0000 1.0000
73.6000 416.0000 1.0000
73.6600 386.0000 1.0000
73.7200 431.0000 1.0000
73.7800 453.0000 1.0000
73.8400 426.0000 1.0000
73.9000 426.0000 1.0000
73.9600 423.0000 1.0000
74.0200 405.0000 1.0000
74.0800 449.0000 1.0000
74.1400 430.0000 1.0000
74.2000 444.0000 1.0000
74.2600 449.0000 1.0000
74.3200 440.0000 1.0000
74.3800 440.0000 1.0000
74.4400 423.0000 1.0000
74.5000 427.0000 1.0000
74.5600 384.0000 1.0000
74.6200 428.0000 1.0000
74.6800 420.0000 1.0000
74.7400 382.0000 1.0000
74.8000 396.0000 1.0000
74.8600 432.0000 1.0000
74.9200 428.0000 1.0000
74.9800 396.0000 1.0000
75.0400 427.0000 1.0000
75.1000 416.0000 1.0000
75.1600 421.0000 1.0000
75.2200 405.0000 1.0000
75.2800 397.0000 1.0000
75.3400 430.0000 1.0000
75.4000 403.0000 1.0000
75.4600 383.0000 1.0000
75.5200 429.0000 1.0000
75.5800 421.0000 1.0000
75.6400 404.0000 1.0000
75.7000 381.0000 1.0000
75.7600 441.0000 1.0000
75.8200 401.0000 1.0000
75.8800 405.0000 1.0000
75.9400 421.0000 1.0000
76.0000 392.0000 1.0000
76.0600 414.0000 1.0000
76.1200 424.0000 1.0000
76.1800 384.0000 1.0000
76.2400 402.0000 1.0000
76.3000 427.0000 1.0000
76.3600 407.0000 1.0000
76.4200 419.0000 1.0000
76.4800 399.0000 1.0000
76.5400 440.0000 1.0000
76.6000 416.0000 1.0000
76.6600 403.0000 1.0000
76.7200 415.0000 1.0000
76.7800 423.0000 1.0000
76.8400 429.0000 1.0000
76.9000 439.0000 1.0000
76.9600 417.0000 1.0000
77.0200 430.0000 1.0000
77.0800 436.0000 1.0000
77.1400 431.0000 1.0000
77.2000 447.0000 1.0000
77.2600 453.0000 1.0000
77.3200 382.0000 1.0000
77.3800 442.0000 1.0000
77.4400 433.0000 1.0000
77.5000 409.0000 1.0000
77.5600 416.0000 1.0000
77.6200 401.0000 1.0000
77.6800 409.0000 1.0000
77.7400 447.0000 1.0000
77.8000 401.0000 1.0000
77.8600 431.0000 1.0000
77.9200 431.0000 1.0000
77.9800 420.0000 1.0000
78.0400 426.0000 1.0000
78.1000 410.0000 1.0000
78.1600 441.0000 1.0000
78.2200 437.0000 1.0000
78.2800 403.0000 1.0000
78.3400 463.0000 1.0000
78.4000 436.0000 1.0000
78.4600 464.0000 1.0000
78.5200 431.0000 1.0000
78.5800 456.0000 1.0000
78.6400 517.0000 1.0000
78.7000 491.0000 1.0000
78.7600 600.0000 1.0000
78.8200 638.0000 1.0000
78.8800 628.0000 1.0000
78.9400 585.0000 1.0000
79.0000 581.0000 1.0000
79.0600 555.0000 1.0000
79.1200 540.0000 1.0000
79.1800 521.0000 1.0000
79.2400 501.0000 1.0000
79.3000 431.0000 1.0000
79.3600 463.0000 1.0000
79.4200 401.0000 1.0000
79.4800 451.0000 1.0000
79.5400 422.0000 1.0000
79.6000 432.0000 1.0000
79.6600 415.0000 1.0000
79.7200 440.0000 1.0000
79.7800 411.0000 1.0000
79.8400 424.0000 1.0000
79.9000 451.0000 1.0000
79.9600 381.0000 1.0000
80.0200 459.0000 1.0000
80.0800 432.0000 1.0000
80.1400 457.0000 1.0000
80.2000 408.0000 1.0000
80.2600 448.0000 1.0000
80.3200 423.0000 1.0000
80.3800 422.0000 1.0000
80.4400 407.0000 1.0000
80.5000 463.0000 1.0000
80.5600 432.0000 1.0000
80.6200 433.0000 1.0000
80.6800 437.0000 1.0000
80.7400 425.0000 1.0000
80.8000 430.0000 1.0000
80.8600 426.0000 1.0000
80.9200 409.0000 1.0000
80.9800 416.0000 1.0000
81.0400 403.0000 1.0000
81.1000 436.0000 1.0000
81.1600 404.0000 1.0000
81.2200 452.0000 1.0000
81.2800 417.0000 1.0000
81.3400 419.0000 1.0000
81.4000 406.0000 1.0000
81.4600 428.0000 1.0000
81.5200 412.0000 1.0000
81.5800 421.0000 1.0000
81.6400 428.0000 1.0000
81.7000 427.0000 1.0000
81.7600 416.0000 1.0000
81.8200 412.0000 1.0000
81.8800 461.0000 1.0000
81.9400 408.0000 1.0000
82.0000 385.0000 1.0000
82.0600 423.0000 1.0000
82.1200 434.0000 1.0000
82.1800 431.0000 1.0000
82.2400 441.0000 1.0000
82.3000 408.0000 1.0000
82.3600 436.0000 1.0000
82.4200 409.0000 1.0000
82.4800 468.0000 1.0000
82.5400 395.0000 1.0000
82.6000 419.0000 1.0000
82.6600 422.0000 1.0000
82.7200 451.0000 1.0000
82.7800 421.0000 1.0000
82.8400 410.0000 1.0000
82.9000 459.0000 1.0000
82.9600 402.0000 1.0000
83.0200 434.0000 1.0000
83.0800 443.0000 1.0000
83.1400 412.0000 1.0000
83.2000 399.0000 1.0000
83.2600 453.0000 1.0000
83.3200 426.0000 1.0000
83.3800 482.0000 1.0000
83.4400 446.0000 1.0000
83.5000 467.0000 1.0000
83.5600 513.0000 1.0000
83.6200 475.0000 1.0000
83.6800 504.0000 1.0000
83.7400 510.0000 1.0000
83.8000 463.0000 1.0000
83.8600 474.0000 1.0000
83.9200 470.0000 1.0000
83.9800 451.0000 1.0000
84.0400 425.0000 1.0000
84.1000 427.0000 1.0000
84.1600 451.0000 1.0000
84.2200 388.0000 1.0000
84.2800 404.0000 1.0000
84.3400 453.0000 1.0000
84.4000 467.0000 1.0000
84.4600 438.0000 1.0000
84.5200 403.0000 1.0000
84.5800 448.0000 1.0000
84.6400 418.0000 1.0000
84.7000 454.0000 1.0000
84.7600 398.0000 1.0000
84.8200 463.0000 1.0000
84.8800 446.0000 1.0000
84.9400 395.0000 1.0000
85.0000 465.0000 1.0000
85.0600 463.0000 1.0000
85.1200 431.0000 1.0000
85.1800 417.0000 1.0000
85.2400 440.0000 1.0000
85.3000 429.0000 1.0000
85.3600 429.0000 1.0000
85.4200 457.0000 1.0000
85.4800 409.0000 1.0000
85.5400 440.0000 1.0000
85.6000 436.0000 1.0000
85.6600 410.0000 1.0000
85.7200 447.0000 1.0000
85.7800 417.0000 1.0000
85.8400 471.0000 1.0000
85.9000 429.0000 1.0000
85.9600 484.0000 1.0000
86.0200 469.0000 1.0000
86.0800 454.0000 1.0000
86.1400 425.0000 1.0000
86.2000 463.0000 1.0000
86.2600 483.0000 1.0000
86.3200 433.0000 1.0000
86.3800 429.0000 1.0000
86.4400 446.0000 1.0000
86.5000 440.0000 1.0000
86.5600 423.0000 1.0000
86.6200 462.0000 1.0000
86.6800 477.0000 1.0000
86.7400 407.0000 1.0000
86.8000 447.0000 1.0000
86.8600 413.0000 1.0000
86.9200 417.0000 1.0000
86.9800 434.0000 1.0000
87.0400 438.0000 1.0000
87.1000 422.0000 1.0000
87.1600 442.0000 1.0000
87.2200 471.0000 1.0000
87.2800 434.0000 1.0000
87.3400 453.0000 1.0000
87.4000 454.0000 1.0000
87.4600 417.0000 1.0000
87.5200 435.0000 1.0000
87.5800 420.0000 1.0000
87.6400 437.0000 1.0000
87.7000 463.0000 1.0000
87.7600 444.0000 1.0000
87.8200 463.0000 1.0000
87.8800 468.0000 1.0000
87.9400 519.0000 1.0000
88.0000 469.0000 1.0000
88.0600 484.0000 1.0000
88.1200 552.0000 1.0000
88.1800 481.0000 1.0000
88.2400 523.0000 1.0000
88.3000 493.0000 1.0000
88.3600 486.0000 1.0000
88.4200 445.0000 1.0000
88.4800 479.0000 1.0000
88.5400 484.0000 1.0000
88.6000 477.0000 1.0000
88.6600 451.0000 1.0000
88.7200 463.0000 1.0000
88.7800 481.0000 1.0000
88.8400 433.0000 1.0000
88.9000 431.0000 1.0000
88.9600 461.0000 1.0000
89.0200 446.0000 1.0000
89.0800 446.0000 1.0000
89.1400 409.0000 1.0000
89.2000 425.0000 1.0000
89.2600 437.0000 1.0000
89.3200 500.0000 1.0000
89.3800 446.0000 1.0000
89.4400 412.0000 1.0000
89.5000 410.0000 1.0000
89.5600 396.0000 1.0000
89.6200 435.0000 1.0000
89.6800 460.0000 1.0000
89.7400 454.0000 1.0000
89.8000 456.0000 1.0000
89.8600 448.0000 1.0000
89.9200 433.0000 1.0000
89.9800 418.0000 1.0000
90.0000 436.0000 1.0000